Data from 135_MAYP1156461__4__21.txt Node

Date: Fri Sep 01 15:00:40 MSK 2023
User: mishev
Spectrometer: MAYP115646
Trigger mode: 0
Integration Time (sec): 5,000000E-2
Scans to average: 1
Electric dark correction enabled: true
Nonlinearity correction enabled: false
Boxcar width: 0
XAxis mode: Wavelengths
Number of Pixels in Spectrum: 2068
>>>>>Begin Spectral Data<<<<<
199,511	779,67
199,981	-135,33
200,452	23,67
200,923	-9,33
201,394	52,67
201,865	68,67
202,335	76,67
202,806	69,67
203,277	75,67
203,748	70,67
204,218	73,67
204,689	103,67
205,159	74,67
205,63	83,67
206,101	84,67
206,571	68,67
207,042	80,67
207,512	76,67
207,983	67,67
208,453	67,67
208,923	74,67
209,394	95,67
209,864	66,67
210,335	75,67
210,805	68,67
211,275	80,67
211,745	82,67
212,216	92,67
212,686	88,67
213,156	82,67
213,626	90,67
214,096	93,67
214,566	88,67
215,037	100,67
215,507	92,67
215,977	83,67
216,447	90,67
216,917	88,67
217,387	104,67
217,857	88,67
218,326	82,67
218,796	91,67
219,266	82,67
219,736	84,67
220,206	109,67
220,676	98,67
221,145	82,67
221,615	109,67
222,085	87,67
222,555	100,67
223,024	101,67
223,494	95,67
223,964	102,67
224,433	107,67
224,903	105,67
225,372	97,67
225,842	97,67
226,311	106,67
226,781	103,67
227,25	91,67
227,72	105,67
228,189	93,67
228,658	112,67
229,128	99,67
229,597	93,67
230,066	100,67
230,536	70,67
231,005	101,67
231,474	99,67
231,943	97,67
232,412	105,67
232,881	110,67
233,351	89,67
233,82	103,67
234,289	100,67
234,758	90,67
235,227	88,67
235,696	80,67
236,165	95,67
236,634	94,67
237,103	93,67
237,572	101,67
238,04	87,67
238,509	99,67
238,978	82,67
239,447	114,67
239,916	97,67
240,384	98,67
240,853	100,67
241,322	94,67
241,79	94,67
242,259	97,67
242,728	113,67
243,196	78,67
243,665	96,67
244,133	106,67
244,602	93,67
245,07	93,67
245,539	87,67
246,007	96,67
246,476	116,67
246,944	95,67
247,413	93,67
247,881	86,67
248,349	95,67
248,817	103,67
249,286	94,67
249,754	115,67
250,222	93,67
250,69	90,67
251,159	90,67
251,627	106,67
252,095	91,67
252,563	88,67
253,031	108,67
253,499	99,67
253,967	105,67
254,435	98,67
254,903	106,67
255,371	102,67
255,839	122,67
256,307	85,67
256,775	109,67
257,242	90,67
257,71	102,67
258,178	94,67
258,646	105,67
259,114	90,67
259,581	130,67
260,049	85,67
260,517	89,67
260,984	124,67
261,452	87,67
261,919	84,67
262,387	82,67
262,855	108,67
263,322	96,67
263,79	108,67
264,257	86,67
264,724	96,67
265,192	103,67
265,659	105,67
266,127	97,67
266,594	114,67
267,061	97,67
267,529	99,67
267,996	111,67
268,463	105,67
268,93	97,67
269,397	86,67
269,865	101,67
270,332	99,67
270,799	84,67
271,266	99,67
271,733	104,67
272,2	104,67
272,667	104,67
273,134	92,67
273,601	107,67
274,068	100,67
274,535	83,67
275,002	127,67
275,469	95,67
275,935	90,67
276,402	96,67
276,869	103,67
277,336	109,67
277,802	97,67
278,269	109,67
278,736	98,67
279,203	90,67
279,669	114,67
280,136	106,67
280,602	105,67
281,069	97,67
281,535	99,67
282,002	98,67
282,468	89,67
282,935	93,67
283,401	92,67
283,868	94,67
284,334	107,67
284,8	102,67
285,267	107,67
285,733	104,67
286,199	105,67
286,666	89,67
287,132	90,67
287,598	98,67
288,064	90,67
288,53	106,67
288,996	94,67
289,463	78,67
289,929	112,67
290,395	89,67
290,861	80,67
291,327	91,67
291,793	91,67
292,259	107,67
292,725	109,67
293,19	79,67
293,656	113,67
294,122	83,67
294,588	99,67
295,054	98,67
295,52	100,67
295,985	111,67
296,451	80,67
296,917	89,67
297,382	85,67
297,848	101,67
298,314	108,67
298,779	101,67
299,245	111,67
299,71	99,67
300,176	106,67
300,641	101,67
301,107	91,67
301,572	93,67
302,038	85,67
302,503	104,67
302,968	101,67
303,434	89,67
303,899	96,67
304,364	124,67
304,83	104,67
305,295	91,67
305,76	87,67
306,225	106,67
306,69	114,67
307,156	88,67
307,621	104,67
308,086	103,67
308,551	110,67
309,016	92,67
309,481	104,67
309,946	82,67
310,411	96,67
310,876	100,67
311,341	112,67
311,806	82,67
312,27	96,67
312,735	92,67
313,2	94,67
313,665	88,67
314,13	106,67
314,594	92,67
315,059	86,67
315,524	89,67
315,988	117,67
316,453	84,67
316,918	94,67
317,382	99,67
317,847	100,67
318,311	105,67
318,776	103,67
319,24	106,67
319,705	94,67
320,169	123,67
320,634	88,67
321,098	100,67
321,562	121,67
322,027	99,67
322,491	82,67
322,955	102,67
323,419	103,67
323,884	100,67
324,348	125,67
324,812	109,67
325,276	98,67
325,74	90,67
326,204	96,67
326,668	92,67
327,132	100,67
327,596	77,67
328,06	106,67
328,524	100,67
328,988	81,67
329,452	86,67
329,916	104,67
330,38	123,67
330,844	93,67
331,308	99,67
331,771	91,67
332,235	98,67
332,699	92,67
333,163	100,67
333,626	90,67
334,09	81,67
334,554	100,67
335,017	96,67
335,481	95,67
335,944	118,67
336,408	89,67
336,871	103,67
337,335	84,67
337,798	92,67
338,262	92,67
338,725	105,67
339,188	79,67
339,652	74,67
340,115	106,67
340,578	114,67
341,042	96,67
341,505	84,67
341,968	100,67
342,431	183,67
342,895	75,67
343,358	102,67
343,821	79,67
344,284	87,67
344,747	97,67
345,21	80,67
345,673	102,67
346,136	90,67
346,599	102,67
347,062	103,67
347,525	88,67
347,988	110,67
348,451	105,67
348,913	79,67
349,376	93,67
349,839	86,67
350,302	87,67
350,765	80,67
351,227	121,67
351,69	93,67
352,153	90,67
352,615	79,67
353,078	110,67
353,54	97,67
354,003	95,67
354,465	101,67
354,928	89,67
355,39	75,67
355,853	104,67
356,315	80,67
356,778	106,67
357,24	106,67
357,702	119,67
358,165	108,67
358,627	99,67
359,089	107,67
359,552	103,67
360,014	89,67
360,476	100,67
360,938	94,67
361,4	87,67
361,862	90,67
362,325	98,67
362,787	86,67
363,249	99,67
363,711	96,67
364,173	116,67
364,635	89,67
365,097	79,67
365,558	115,67
366,02	96,67
366,482	108,67
366,944	86,67
367,406	102,67
367,868	108,67
368,329	87,67
368,791	86,67
369,253	88,67
369,714	88,67
370,176	108,67
370,638	81,67
371,099	92,67
371,561	96,67
372,022	75,67
372,484	86,67
372,945	107,67
373,407	106,67
373,868	96,67
374,33	93,67
374,791	84,67
375,253	93,67
375,714	77,67
376,175	106,67
376,637	86,67
377,098	108,67
377,559	91,67
378,02	99,67
378,481	99,67
378,943	92,67
379,404	89,67
379,865	91,67
380,326	92,67
380,787	110,67
381,248	93,67
381,709	100,67
382,17	97,67
382,631	105,67
383,092	95,67
383,553	102,67
384,014	105,67
384,474	81,67
384,935	115,67
385,396	77,67
385,857	76,67
386,318	101,67
386,778	98,67
387,239	89,67
387,7	95,67
388,16	76,67
388,621	81,67
389,082	107,67
389,542	86,67
390,003	102,67
390,463	91,67
390,924	109,67
391,384	110,67
391,845	108,67
392,305	89,67
392,765	109,67
393,226	91,67
393,686	94,67
394,146	103,67
394,607	94,67
395,067	100,67
395,527	85,67
395,987	96,67
396,447	102,67
396,908	87,67
397,368	99,67
397,828	86,67
398,288	108,67
398,748	109,67
399,208	100,67
399,668	101,67
400,128	92,67
400,588	118,67
401,048	115,67
401,508	97,67
401,968	112,67
402,427	87,67
402,887	103,67
403,347	115,67
403,807	106,67
404,266	92,67
404,726	110,67
405,186	115,67
405,645	114,67
406,105	108,67
406,565	115,67
407,024	96,67
407,484	109,67
407,943	116,67
408,403	112,67
408,862	103,67
409,322	130,67
409,781	141,67
410,241	123,67
410,7	138,67
411,159	138,67
411,619	143,67
412,078	144,67
412,537	156,67
412,996	171,67
413,456	164,67
413,915	152,67
414,374	178,67
414,833	178,67
415,292	187,67
415,751	191,67
416,21	246,67
416,669	213,67
417,128	233,67
417,587	230,67
418,046	237,67
418,505	263,67
418,964	281,67
419,423	264,67
419,882	314,67
420,341	364,67
420,799	338,67
421,258	380,67
421,717	386,67
422,176	391,67
422,634	426,67
423,093	455,67
423,552	471,67
424,01	500,67
424,469	517,67
424,927	556,67
425,386	604,67
425,844	667,67
426,303	638,67
426,761	699,67
427,22	753,67
427,678	778,67
428,137	807,67
428,595	861,67
429,053	951,67
429,512	947,67
429,97	1036,67
430,428	1070,67
430,886	1092,67
431,344	1176,67
431,803	1234,67
432,261	1273,67
432,719	1323,67
433,177	1373,67
433,635	1425,67
434,093	1558,67
434,551	1601,67
435,009	1641,67
435,467	1737,67
435,925	1816,67
436,383	1907,67
436,841	2040,67
437,299	2122,67
437,756	2208,67
438,214	2365,67
438,672	2515,67
439,13	2595,67
439,587	2696,67
440,045	2835,67
440,503	2945,67
440,96	3122,67
441,418	3302,67
441,876	3398,67
442,333	3442,67
442,791	3646,67
443,248	3682,67
443,706	3774,67
444,163	3836,67
444,621	3932,67
445,078	3920,67
445,535	3872,67
445,993	3889,67
446,45	3786,67
446,907	3796,67
447,365	3666,67
447,822	3628,67
448,279	3490,67
448,736	3302,67
449,193	3242,67
449,651	3003,67
450,108	2946,67
450,565	2763,67
451,022	2507,67
451,479	2479,67
451,936	2284,67
452,393	2165,67
452,85	2028,67
453,307	1905,67
453,764	1760,67
454,221	1669,67
454,677	1586,67
455,134	1561,67
455,591	1418,67
456,048	1419,67
456,505	1332,67
456,961	1254,67
457,418	1225,67
457,875	1178,67
458,331	1135,67
458,788	1152,67
459,244	1079,67
459,701	1058,67
460,158	1049,67
460,614	1028,67
461,071	958,67
461,527	944,67
461,983	929,67
462,44	872,67
462,896	884,67
463,353	790,67
463,809	806,67
464,265	788,67
464,721	722,67
465,178	732,67
465,634	738,67
466,09	648,67
466,546	658,67
467,002	613,67
467,458	626,67
467,915	577,67
468,371	544,67
468,827	502,67
469,283	512,67
469,739	491,67
470,195	484,67
470,651	473,67
471,106	459,67
471,562	446,67
472,018	447,67
472,474	405,67
472,93	399,67
473,386	397,67
473,841	403,67
474,297	387,67
474,753	397,67
475,208	393,67
475,664	404,67
476,12	366,67
476,575	389,67
477,031	376,67
477,486	368,67
477,942	372,67
478,397	368,67
478,853	382,67
479,308	344,67
479,763	365,67
480,219	342,67
480,674	339,67
481,13	338,67
481,585	334,67
482,04	352,67
482,495	342,67
482,951	359,67
483,406	319,67
483,861	370,67
484,316	327,67
484,771	316,67
485,226	385,67
485,681	342,67
486,136	360,67
486,591	360,67
487,046	384,67
487,501	344,67
487,956	367,67
488,411	384,67
488,866	368,67
489,321	391,67
489,775	382,67
490,23	421,67
490,685	404,67
491,14	432,67
491,594	413,67
492,049	430,67
492,504	442,67
492,958	454,67
493,413	475,67
493,868	481,67
494,322	481,67
494,777	487,67
495,231	531,67
495,686	525,67
496,14	567,67
496,594	547,67
497,049	598,67
497,503	597,67
497,958	619,67
498,412	627,67
498,866	630,67
499,32	666,67
499,775	679,67
500,229	715,67
500,683	691,67
501,137	752,67
501,591	768,67
502,045	787,67
502,499	814,67
502,953	816,67
503,407	796,67
503,861	850,67
504,315	839,67
504,769	876,67
505,223	931,67
505,677	942,67
506,131	953,67
506,585	966,67
507,039	972,67
507,492	1032,67
507,946	1025,67
508,4	1047,67
508,854	1072,67
509,307	1134,67
509,761	1128,67
510,214	1169,67
510,668	1155,67
511,122	1164,67
511,575	1198,67
512,029	1220,67
512,482	1218,67
512,936	1275,67
513,389	1298,67
513,842	1309,67
514,296	1332,67
514,749	1362,67
515,202	1387,67
515,656	1356,67
516,109	1375,67
516,562	1409,67
517,015	1471,67
517,469	1442,67
517,922	1474,67
518,375	1472,67
518,828	1486,67
519,281	1539,67
519,734	1584,67
520,187	1562,67
520,64	1630,67
521,093	1602,67
521,546	1555,67
521,999	1663,67
522,452	1660,67
522,905	1672,67
523,358	1686,67
523,81	1678,67
524,263	1709,67
524,716	1682,67
525,169	1742,67
525,621	1810,67
526,074	1772,67
526,527	1822,67
526,979	1813,67
527,432	1815,67
527,884	1814,67
528,337	1820,67
528,789	1874,67
529,242	1900,67
529,694	1901,67
530,147	1862,67
530,599	1856,67
531,052	1910,67
531,504	1870,67
531,956	1984,67
532,409	1896,67
532,861	1992,67
533,313	1984,67
533,765	2001,67
534,218	1981,67
534,67	1979,67
535,122	1964,67
535,574	2007,67
536,026	1975,67
536,478	2006,67
536,93	2034,67
537,382	2029,67
537,834	2051,67
538,286	2010,67
538,738	2060,67
539,19	2066,67
539,642	2116,67
540,094	2104,67
540,545	2078,67
540,997	2107,67
541,449	2073,67
541,901	2071,67
542,352	2120,67
542,804	2110,67
543,256	2125,67
543,707	2145,67
544,159	2101,67
544,611	2069,67
545,062	2064,67
545,514	2057,67
545,965	2048,67
546,417	2122,67
546,868	2056,67
547,319	2083,67
547,771	2107,67
548,222	2077,67
548,674	2106,67
549,125	2130,67
549,576	2070,67
550,027	2089,67
550,479	2088,67
550,93	2056,67
551,381	2077,67
551,832	2076,67
552,283	2062,67
552,734	2064,67
553,185	2034,67
553,636	2056,67
554,087	2000,67
554,538	2038,67
554,989	1995,67
555,44	2030,67
555,891	1965,67
556,342	1992,67
556,793	2004,67
557,244	2004,67
557,694	1982,67
558,145	1986,67
558,596	1953,67
559,047	1957,67
559,497	1969,67
559,948	1969,67
560,399	1954,67
560,849	1930,67
561,3	1933,67
561,75	1890,67
562,201	1980,67
562,651	1872,67
563,102	1916,67
563,552	1930,67
564,003	1861,67
564,453	1901,67
564,903	1930,67
565,354	1916,67
565,804	1878,67
566,254	1873,67
566,705	1892,67
567,155	1866,67
567,605	1860,67
568,055	1849,67
568,505	1889,67
568,955	1868,67
569,405	1860,67
569,856	1858,67
570,306	1844,67
570,756	1868,67
571,206	1836,67
571,656	1822,67
572,105	1853,67
572,555	1792,67
573,005	1798,67
573,455	1830,67
573,905	1766,67
574,355	1802,67
574,804	1757,67
575,254	1726,67
575,704	1780,67
576,154	1782,67
576,603	1764,67
577,053	1751,67
577,502	1762,67
577,952	1778,67
578,402	1764,67
578,851	1744,67
579,301	1722,67
579,75	1728,67
580,199	1740,67
580,649	1720,67
581,098	1725,67
581,548	1721,67
581,997	1700,67
582,446	1719,67
582,895	1705,67
583,345	1659,67
583,794	1655,67
584,243	1668,67
584,692	1643,67
585,141	1625,67
585,591	1681,67
586,04	1628,67
586,489	1654,67
586,938	1687,67
587,387	1602,67
587,836	1655,67
588,285	1618,67
588,734	1602,67
589,182	1616,67
589,631	1604,67
590,08	1602,67
590,529	1605,67
590,978	1549,67
591,426	1567,67
591,875	1575,67
592,324	1519,67
592,773	1549,67
593,221	1501,67
593,67	1527,67
594,118	1476,67
594,567	1548,67
595,016	1496,67
595,464	1466,67
595,913	1529,67
596,361	1507,67
596,809	1468,67
597,258	1476,67
597,706	1479,67
598,155	1468,67
598,603	1385,67
599,051	1416,67
599,499	1435,67
599,948	1383,67
600,396	1419,67
600,844	1403,67
601,292	1353,67
601,74	1395,67
602,188	1366,67
602,636	1342,67
603,085	1346,67
603,533	1366,67
603,981	1328,67
604,429	1375,67
604,876	1330,67
605,324	1354,67
605,772	1316,67
606,22	1280,67
606,668	1280,67
607,116	1270,67
607,563	1284,67
608,011	1255,67
608,459	1277,67
608,907	1307,67
609,354	1262,67
609,802	1230,67
610,25	1221,67
610,697	1223,67
611,145	1237,67
611,592	1222,67
612,04	1222,67
612,487	1210,67
612,935	1170,67
613,382	1252,67
613,829	1159,67
614,277	1150,67
614,724	1201,67
615,171	1146,67
615,619	1139,67
616,066	1122,67
616,513	1152,67
616,96	1123,67
617,408	1108,67
617,855	1088,67
618,302	1081,67
618,749	1084,67
619,196	1095,67
619,643	1072,67
620,09	1062,67
620,537	1065,67
620,984	1007,67
621,431	1023,67
621,878	1022,67
622,325	1009,67
622,771	1047,67
623,218	980,67
623,665	980,67
624,112	1028,67
624,559	1003,67
625,005	973,67
625,452	986,67
625,899	967,67
626,345	988,67
626,792	948,67
627,238	904,67
627,685	940,67
628,131	896,67
628,578	912,67
629,024	897,67
629,471	853,67
629,917	913,67
630,364	880,67
630,81	886,67
631,256	902,67
631,703	854,67
632,149	885,67
632,595	867,67
633,041	853,67
633,487	808,67
633,934	833,67
634,38	821,67
634,826	845,67
635,272	811,67
635,718	777,67
636,164	786,67
636,61	791,67
637,056	802,67
637,502	768,67
637,948	787,67
638,394	754,67
638,839	712,67
639,285	792,67
639,731	743,67
640,177	739,67
640,623	718,67
641,068	727,67
641,514	739,67
641,96	740,67
642,405	707,67
642,851	718,67
643,296	702,67
643,742	695,67
644,187	669,67
644,633	686,67
645,078	692,67
645,524	696,67
645,969	685,67
646,415	664,67
646,86	648,67
647,305	632,67
647,751	662,67
648,196	654,67
648,641	617,67
649,086	627,67
649,532	625,67
649,977	581,67
650,422	627,67
650,867	611,67
651,312	586,67
651,757	607,67
652,202	604,67
652,647	571,67
653,092	560,67
653,537	578,67
653,982	555,67
654,427	560,67
654,872	552,67
655,316	563,67
655,761	542,67
656,206	561,67
656,651	549,67
657,096	549,67
657,54	521,67
657,985	510,67
658,43	548,67
658,874	523,67
659,319	502,67
659,763	514,67
660,208	483,67
660,652	489,67
661,097	485,67
661,541	490,67
661,986	470,67
662,43	500,67
662,874	486,67
663,319	464,67
663,763	462,67
664,207	473,67
664,651	489,67
665,096	448,67
665,54	442,67
665,984	447,67
666,428	436,67
666,872	449,67
667,316	445,67
667,76	438,67
668,204	450,67
668,648	429,67
669,092	429,67
669,536	402,67
669,98	420,67
670,424	411,67
670,868	387,67
671,312	425,67
671,756	407,67
672,199	411,67
672,643	392,67
673,087	386,67
673,531	393,67
673,974	352,67
674,418	389,67
674,862	391,67
675,305	381,67
675,749	396,67
676,192	368,67
676,636	355,67
677,079	362,67
677,523	357,67
677,966	359,67
678,409	340,67
678,853	355,67
679,296	323,67
679,739	347,67
680,183	358,67
680,626	324,67
681,069	332,67
681,512	326,67
681,955	324,67
682,399	331,67
682,842	314,67
683,285	329,67
683,728	352,67
684,171	335,67
684,614	307,67
685,057	303,67
685,5	320,67
685,943	299,67
686,386	284,67
686,828	293,67
687,271	309,67
687,714	305,67
688,157	305,67
688,6	291,67
689,042	285,67
689,485	278,67
689,928	299,67
690,37	297,67
690,813	285,67
691,255	292,67
691,698	287,67
692,141	283,67
692,583	268,67
693,025	275,67
693,468	260,67
693,91	264,67
694,353	276,67
694,795	272,67
695,237	269,67
695,68	254,67
696,122	272,67
696,564	258,67
697,006	255,67
697,449	262,67
697,891	240,67
698,333	275,67
698,775	224,67
699,217	245,67
699,659	261,67
700,101	231,67
700,543	232,67
700,985	243,67
701,427	243,67
701,869	236,67
702,311	240,67
702,753	241,67
703,195	225,67
703,636	226,67
704,078	217,67
704,52	226,67
704,962	224,67
705,403	243,67
705,845	264,67
706,286	218,67
706,728	222,67
707,17	203,67
707,611	227,67
708,053	218,67
708,494	230,67
708,936	238,67
709,377	212,67
709,819	219,67
710,26	212,67
710,701	202,67
711,143	225,67
711,584	190,67
712,025	233,67
712,466	215,67
712,908	212,67
713,349	184,67
713,79	214,67
714,231	206,67
714,672	203,67
715,113	192,67
715,554	198,67
715,995	183,67
716,436	192,67
716,877	172,67
717,318	200,67
717,759	196,67
718,2	177,67
718,641	177,67
719,082	184,67
719,522	172,67
719,963	184,67
720,404	190,67
720,844	193,67
721,285	194,67
721,726	165,67
722,166	159,67
722,607	182,67
723,048	189,67
723,488	170,67
723,929	174,67
724,369	158,67
724,81	175,67
725,25	158,67
725,69	163,67
726,131	176,67
726,571	176,67
727,011	165,67
727,452	165,67
727,892	173,67
728,332	162,67
728,772	159,67
729,212	159,67
729,653	166,67
730,093	177,67
730,533	152,67
730,973	157,67
731,413	165,67
731,853	160,67
732,293	153,67
732,733	171,67
733,173	144,67
733,613	172,67
734,052	169,67
734,492	155,67
734,932	156,67
735,372	153,67
735,812	147,67
736,251	154,67
736,691	157,67
737,131	186,67
737,57	154,67
738,01	133,67
738,449	159,67
738,889	145,67
739,329	152,67
739,768	150,67
740,208	159,67
740,647	146,67
741,086	164,67
741,526	144,67
741,965	133,67
742,404	164,67
742,844	160,67
743,283	141,67
743,722	143,67
744,161	151,67
744,601	153,67
745,04	158,67
745,479	146,67
745,918	133,67
746,357	135,67
746,796	139,67
747,235	133,67
747,674	150,67
748,113	140,67
748,552	131,67
748,991	142,67
749,43	127,67
749,869	146,67
750,307	150,67
750,746	150,67
751,185	139,67
751,624	157,67
752,062	132,67
752,501	144,67
752,94	156,67
753,378	158,67
753,817	161,67
754,255	143,67
754,694	118,67
755,132	136,67
755,571	134,67
756,009	132,67
756,448	139,67
756,886	146,67
757,325	134,67
757,763	121,67
758,201	139,67
758,639	116,67
759,078	116,67
759,516	118,67
759,954	146,67
760,392	124,67
760,83	125,67
761,268	120,67
761,707	135,67
762,145	146,67
762,583	138,67
763,021	126,67
763,459	120,67
763,896	136,67
764,334	138,67
764,772	131,67
765,21	124,67
765,648	122,67
766,086	121,67
766,524	124,67
766,961	127,67
767,399	132,67
767,837	141,67
768,274	131,67
768,712	149,67
769,149	136,67
769,587	121,67
770,025	113,67
770,462	137,67
770,9	117,67
771,337	138,67
771,774	113,67
772,212	128,67
772,649	104,67
773,087	114,67
773,524	132,67
773,961	136,67
774,398	118,67
774,836	134,67
775,273	122,67
775,71	121,67
776,147	119,67
776,584	116,67
777,021	130,67
777,458	114,67
777,895	137,67
778,332	105,67
778,769	111,67
779,206	107,67
779,643	110,67
780,08	119,67
780,517	133,67
780,954	114,67
781,391	121,67
781,827	113,67
782,264	122,67
782,701	125,67
783,137	126,67
783,574	131,67
784,011	110,67
784,447	120,67
784,884	114,67
785,32	109,67
785,757	131,67
786,193	127,67
786,63	107,67
787,066	127,67
787,503	115,67
787,939	139,67
788,375	109,67
788,812	83,67
789,248	102,67
789,684	123,67
790,12	127,67
790,557	124,67
790,993	127,67
791,429	120,67
791,865	101,67
792,301	115,67
792,737	111,67
793,173	104,67
793,609	110,67
794,045	96,67
794,481	137,67
794,917	97,67
795,353	129,67
795,789	121,67
796,225	133,67
796,66	102,67
797,096	117,67
797,532	116,67
797,968	116,67
798,403	105,67
798,839	118,67
799,275	117,67
799,71	125,67
800,146	109,67
800,581	128,67
801,017	98,67
801,452	102,67
801,888	141,67
802,323	124,67
802,759	103,67
803,194	116,67
803,629	112,67
804,065	93,67
804,5	119,67
804,935	120,67
805,37	122,67
805,806	104,67
806,241	116,67
806,676	137,67
807,111	77,67
807,546	105,67
807,981	122,67
808,416	114,67
808,851	122,67
809,286	110,67
809,721	112,67
810,156	109,67
810,591	109,67
811,026	123,67
811,46	127,67
811,895	107,67
812,33	92,67
812,765	105,67
813,199	98,67
813,634	104,67
814,069	103,67
814,503	104,67
814,938	160,67
815,373	122,67
815,807	101,67
816,242	115,67
816,676	126,67
817,111	109,67
817,545	100,67
817,979	119,67
818,414	119,67
818,848	122,67
819,282	122,67
819,717	92,67
820,151	114,67
820,585	86,67
821,019	119,67
821,453	100,67
821,888	100,67
822,322	108,67
822,756	137,67
823,19	114,67
823,624	92,67
824,058	108,67
824,492	124,67
824,926	102,67
825,36	102,67
825,794	120,67
826,227	112,67
826,661	116,67
827,095	109,67
827,529	135,67
827,962	129,67
828,396	102,67
828,83	108,67
829,263	108,67
829,697	111,67
830,131	97,67
830,564	114,67
830,998	98,67
831,431	140,67
831,865	105,67
832,298	94,67
832,732	94,67
833,165	108,67
833,598	120,67
834,032	116,67
834,465	107,67
834,898	109,67
835,331	106,67
835,765	109,67
836,198	101,67
836,631	102,67
837,064	109,67
837,497	114,67
837,93	115,67
838,363	98,67
838,796	109,67
839,229	104,67
839,662	121,67
840,095	106,67
840,528	114,67
840,961	107,67
841,394	100,67
841,827	105,67
842,259	119,67
842,692	92,67
843,125	117,67
843,558	120,67
843,99	115,67
844,423	92,67
844,855	105,67
845,288	130,67
845,721	129,67
846,153	90,67
846,586	103,67
847,018	121,67
847,45	116,67
847,883	103,67
848,315	110,67
848,748	108,67
849,18	111,67
849,612	99,67
850,044	118,67
850,477	128,67
850,909	116,67
851,341	104,67
851,773	103,67
852,205	104,67
852,637	112,67
853,069	97,67
853,501	101,67
853,933	112,67
854,365	92,67
854,797	150,67
855,229	90,67
855,661	102,67
856,093	100,67
856,525	93,67
856,957	107,67
857,388	100,67
857,82	100,67
858,252	116,67
858,683	108,67
859,115	105,67
859,547	101,67
859,978	99,67
860,41	96,67
860,841	103,67
861,273	103,67
861,704	107,67
862,136	89,67
862,567	105,67
862,999	117,67
863,43	130,67
863,861	107,67
864,293	108,67
864,724	156,67
865,155	93,67
865,586	96,67
866,017	91,67
866,449	113,67
866,88	86,67
867,311	105,67
867,742	118,67
868,173	88,67
868,604	98,67
869,035	112,67
869,466	100,67
869,897	107,67
870,328	102,67
870,759	95,67
871,189	103,67
871,62	110,67
872,051	97,67
872,482	104,67
872,912	101,67
873,343	98,67
873,774	100,67
874,204	90,67
874,635	116,67
875,066	92,67
875,496	88,67
875,927	99,67
876,357	103,67
876,788	104,67
877,218	96,67
877,648	109,67
878,079	124,67
878,509	107,67
878,939	116,67
879,37	95,67
879,8	106,67
880,23	109,67
880,66	112,67
881,091	128,67
881,521	101,67
881,951	119,67
882,381	99,67
882,811	100,67
883,241	105,67
883,671	77,67
884,101	88,67
884,531	103,67
884,961	99,67
885,391	106,67
885,82	120,67
886,25	83,67
886,68	101,67
887,11	104,67
887,539	104,67
887,969	88,67
888,399	108,67
888,828	104,67
889,258	99,67
889,688	115,67
890,117	82,67
890,547	106,67
890,976	124,67
891,406	92,67
891,835	106,67
892,264	115,67
892,694	87,67
893,123	128,67
893,553	114,67
893,982	101,67
894,411	110,67
894,84	110,67
895,269	108,67
895,699	92,67
896,128	106,67
896,557	103,67
896,986	108,67
897,415	104,67
897,844	105,67
898,273	83,67
898,702	113,67
899,131	122,67
899,56	90,67
899,989	103,67
900,418	96,67
900,846	93,67
901,275	106,67
901,704	89,67
902,133	102,67
902,561	109,67
902,99	115,67
903,419	94,67
903,847	95,67
904,276	118,67
904,704	96,67
905,133	121,67
905,561	99,67
905,99	104,67
906,418	105,67
906,847	130,67
907,275	101,67
907,704	117,67
908,132	102,67
908,56	119,67
908,988	99,67
909,417	91,67
909,845	80,67
910,273	91,67
910,701	126,67
911,129	93,67
911,557	110,67
911,985	116,67
912,413	100,67
912,841	84,67
913,269	111,67
913,697	86,67
914,125	107,67
914,553	100,67
914,981	112,67
915,409	100,67
915,837	109,67
916,264	100,67
916,692	98,67
917,12	108,67
917,547	105,67
917,975	101,67
918,403	111,67
918,83	82,67
919,258	114,67
919,685	99,67
920,113	92,67
920,54	104,67
920,968	110,67
921,395	93,67
921,823	120,67
922,25	92,67
922,677	96,67
923,104	78,67
923,532	101,67
923,959	110,67
924,386	119,67
924,813	109,67
925,24	112,67
925,668	102,67
926,095	103,67
926,522	96,67
926,949	109,67
927,376	102,67
927,803	97,67
928,23	100,67
928,657	118,67
929,083	105,67
929,51	89,67
929,937	95,67
930,364	88,67
930,791	98,67
931,217	94,67
931,644	125,67
932,071	104,67
932,497	95,67
932,924	86,67
933,351	84,67
933,777	139,67
934,204	116,67
934,63	99,67
935,057	96,67
935,483	99,67
935,909	84,67
936,336	100,67
936,762	96,67
937,188	93,67
937,615	89,67
938,041	97,67
938,467	107,67
938,893	103,67
939,32	123,67
939,746	111,67
940,172	128,67
940,598	112,67
941,024	107,67
941,45	100,67
941,876	99,67
942,302	96,67
942,728	102,67
943,154	112,67
943,58	102,67
944,005	101,67
944,431	92,67
944,857	106,67
945,283	93,67
945,709	129,67
946,134	94,67
946,56	112,67
946,986	91,67
947,411	80,67
947,837	89,67
948,262	96,67
948,688	115,67
949,113	85,67
949,539	70,67
949,964	95,67
950,39	113,67
950,815	96,67
951,24	116,67
951,666	104,67
952,091	110,67
952,516	109,67
952,941	91,67
953,367	114,67
953,792	104,67
954,217	108,67
954,642	100,67
955,067	94,67
955,492	94,67
955,917	93,67
956,342	73,67
956,767	103,67
957,192	102,67
957,617	84,67
958,042	114,67
958,466	117,67
958,891	109,67
959,316	98,67
959,741	98,67
960,166	91,67
960,59	96,67
961,015	89,67
961,439	91,67
961,864	110,67
962,289	104,67
962,713	95,67
963,138	104,67
963,562	141,67
963,987	105,67
964,411	108,67
964,835	105,67
965,26	95,67
965,684	90,67
966,108	87,67
966,533	108,67
966,957	98,67
967,381	88,67
967,805	90,67
968,229	97,67
968,654	112,67
969,078	86,67
969,502	101,67
969,926	93,67
970,35	106,67
970,774	93,67
971,198	96,67
971,622	99,67
972,045	99,67
972,469	112,67
972,893	114,67
973,317	88,67
973,741	113,67
974,164	116,67
974,588	93,67
975,012	106,67
975,435	96,67
975,859	109,67
976,283	100,67
976,706	111,67
977,13	105,67
977,553	103,67
977,977	112,67
978,4	113,67
978,824	119,67
979,247	89,67
979,67	108,67
980,094	110,67
980,517	111,67
980,94	98,67
981,363	102,67
981,786	110,67
982,21	85,67
982,633	115,67
983,056	108,67
983,479	92,67
983,902	100,67
984,325	113,67
984,748	101,67
985,171	112,67
985,594	105,67
986,017	97,67
986,44	96,67
986,863	99,67
987,285	96,67
987,708	138,67
988,131	107,67
988,554	112,67
988,976	100,67
989,399	114,67
989,822	139,67
990,244	121,67
990,667	114,67
991,089	118,67
991,512	109,67
991,934	121,67
992,357	130,67
992,779	102,67
993,201	111,67
993,624	90,67
994,046	97,67
994,468	122,67
994,891	120,67
995,313	104,67
995,735	94,67
996,157	96,67
996,579	108,67
997,002	94,67
997,424	127,67
997,846	103,67
998,268	106,67
998,69	87,67
999,112	93,67
999,534	108,67
999,956	109,67
1000,377	79,67
1000,799	105,67
1001,221	107,67
1001,643	100,67
1002,065	97,67
1002,486	110,67
1002,908	114,67
1003,33	114,67
1003,751	87,67
1004,173	97,67
1004,595	99,67
1005,016	82,67
1005,438	96,67
1005,859	104,67
1006,281	92,67
1006,702	114,67
1007,123	99,67
1007,545	102,67
1007,966	100,67
1008,387	97,67
1008,809	96,67
1009,23	109,67
1009,651	110,67
1010,072	126,67
1010,494	99,67
1010,915	88,67
1011,336	100,67
1011,757	98,67
1012,178	98,67
1012,599	104,67
1013,02	108,67
1013,441	109,67
1013,862	90,67
1014,283	90,67
1014,703	106,67
1015,124	93,67
1015,545	110,67
1015,966	101,67
1016,387	104,67
1016,807	102,67
1017,228	101,67
1017,649	82,67
1018,069	110,67
1018,49	121,67
1018,91	117,67
1019,331	110,67
1019,751	107,67
1020,172	100,67
1020,592	97,67
1021,013	99,67
1021,433	112,67
1021,853	109,67
1022,274	100,67
1022,694	98,67
1023,114	103,67
1023,535	97,67
1023,955	104,67
1024,375	92,67
1024,795	94,67
1025,215	111,67
1025,635	112,67
1026,055	114,67
1026,475	110,67
1026,895	103,67
1027,315	115,67
1027,735	123,67
1028,155	99,67
1028,575	90,67
1028,995	92,67
1029,414	87,67
1029,834	103,67
1030,254	115,67
1030,674	91,67
1031,093	100,67
1031,513	116,67
1031,933	111,67
1032,352	105,67
1032,772	85,67
1033,191	126,67
1033,611	100,67
1034,03	112,67
1034,45	108,67
1034,869	101,67
1035,289	91,67
1035,708	109,67
1036,127	91,67
1036,546	94,67
1036,966	121,67
1037,385	98,67
1037,804	106,67
1038,223	115,67
1038,642	113,67
1039,062	116,67
1039,481	93,67
1039,9	103,67
1040,319	106,67
1040,738	120,67
1041,157	91,67
1041,576	114,67
1041,994	106,67
1042,413	99,67
1042,832	99,67
1043,251	105,67
1043,67	115,67
1044,088	106,67
1044,507	106,67
1044,926	123,67
1045,345	121,67
1045,763	92,67
1046,182	90,67
1046,6	101,67
1047,019	77,67
1047,437	105,67
1047,856	94,67
1048,274	108,67
1048,693	91,67
1049,111	108,67
1049,529	108,67
1049,948	122,67
1050,366	114,67
1050,784	89,67
1051,202	101,67
1051,621	98,67
1052,039	129,67
1052,457	109,67
1052,875	76,67
1053,293	105,67
1053,711	101,67
1054,129	115,67
1054,547	103,67
1054,965	93,67
1055,383	106,67
1055,801	104,67
1056,219	88,67
1056,637	106,67
1057,054	103,67
1057,472	96,67
1057,89	91,67
1058,308	87,67
1058,725	102,67
1059,143	92,67
1059,561	110,67
1059,978	116,67
1060,396	117,67
1060,813	95,67
1061,231	139,67
1061,648	96,67
1062,066	94,67
1062,483	110,67
1062,9	91,67
1063,318	142,67
1063,735	113,67
1064,152	110,67
1064,57	105,67
1064,987	98,67
1065,404	91,67
1065,821	116,67
1066,238	88,67
1066,655	104,67
1067,073	92,67
1067,49	82,67
1067,907	107,67
1068,324	127,67
1068,741	93,67
1069,157	90,67
1069,574	112,67
1069,991	107,67
1070,408	105,67
1070,825	110,67
1071,242	126,67
1071,658	87,67
1072,075	124,67
1072,492	97,67
1072,908	102,67
1073,325	98,67
1073,742	83,67
1074,158	95,67
1074,575	93,67
1074,991	90,67
1075,408	106,67
1075,824	123,67
1076,24	83,67
1076,657	102,67
1077,073	106,67
1077,489	104,67
1077,906	112,67
1078,322	102,67
1078,738	99,67
1079,154	96,67
1079,571	104,67
1079,987	101,67
1080,403	111,67
1080,819	137,67
1081,235	116,67
1081,651	104,67
1082,067	92,67
1082,483	103,67
1082,899	103,67
1083,315	104,67
1083,73	132,67
1084,146	108,67
1084,562	96,67
1084,978	102,67
1085,394	107,67
1085,809	109,67
1086,225	111,67
1086,641	98,67
1087,056	91,67
1087,472	80,67
1087,887	96,67
1088,303	116,67
1088,718	90,67
1089,134	114,67
1089,549	106,67
1089,965	111,67
1090,38	89,67
1090,795	112,67
1091,21	117,67
1091,626	121,67
1092,041	97,67
1092,456	96,67
1092,871	109,67
1093,287	109,67
1093,702	99,67
1094,117	75,67
1094,532	107,67
1094,947	96,67
1095,362	110,67
1095,777	94,67
1096,192	109,67
1096,607	154,67
1097,021	113,67
1097,436	121,67
1097,851	98,67
1098,266	82,67
1098,681	112,67
1099,095	94,67
1099,51	108,67
1099,925	97,67
1100,339	105,67
1100,754	87,67
1101,168	96,67
1101,583	100,67
1101,998	110,67
1102,412	109,67
1102,826	87,67
1103,241	92,67
1103,655	104,67
1104,07	96,67
1104,484	88,67
1104,898	113,67
1105,312	82,67
1105,727	93,67
1106,141	69,67
1106,555	97,67
1106,969	104,67
1107,383	103,67
1107,797	91,67
1108,211	87,67
1108,625	104,67
1109,039	100,67
1109,453	73,67
1109,867	88,67
1110,281	85,67
1110,695	66,67
1111,109	81,67
1111,523	64,67
1111,936	71,67
1112,35	70,67
1112,764	76,67
1113,177	57,67
1113,591	69,67
1114,005	74,67
1114,418	-6,33
1114,832	-1,33
1115,245	-1,33
1115,659	-5,33
